Folder: SLADS-Net/Research-ANL/1_Projects/SLADS_2/4_SLADS-rbf-nnr/others/PbSn/2017_04_05_PbSn_Region_1_Inside/New Project/Export/Image 1_spot_3

File: spectrum.emsa
#FORMAT      : EMSA/MAS Spectral Data File
#VERSION     : 1.0
#TITLE       : New Project - spectrum
#DATE        : 05-Apr-2017
#TIME        : 12:37
#OWNER       : Phenom-World B.V.
#NPOINTS     : 170.
#NCOLUMNS    : 1.
#XUNITS      : eV
#YUNITS      : counts
#DATATYPE    : XY
#XPERCHAN    : 10.0
#OFFSET      : -78.6
#SIGNALTYPE  : EDS
#XLABEL      : Energy
#YLABEL      : Counts
#BEAMKV   -kV: 15.0
#ELEVANGLE-dg: 19.0
#AZIMANGLE-dg: 0.0
#LIVETIME  -s: 0.
#REALTIME  -s: 10.
#SPECTRUM    : Spectral Data Starts Here
    6.0,      0.0
   75.7,      0.0
  145.5,      0.0
  215.2,      0.0
  284.9,      7.0
  354.6,      9.0
  424.3,      8.0
  494.0,      8.0
  563.8,      7.0
  633.5,      6.0
  703.2,     11.0
  772.9,      4.0
  842.6,      6.0
  912.4,      9.0
  982.1,      3.0
 1051.8,      3.0
 1121.5,      8.0
 1191.2,      9.0
 1261.0,      9.0
 1330.7,      5.0
 1400.4,      4.0
 1470.1,      7.0
 1539.8,     10.0
 1609.6,      7.0
 1679.3,      7.0
 1749.0,     10.0
 1818.7,     12.0
 1888.4,     11.0
 1958.1,      8.0
 2027.9,      7.0
 2097.6,      9.0
 2167.3,     16.0
 2237.0,     18.0
 2306.7,     54.0
 2376.5,     75.0
 2446.2,     60.0
 2515.9,     24.0
 2585.6,      4.0
 2655.3,      4.0
 2725.1,      3.0
 2794.8,      3.0
 2864.5,      6.0
 2934.2,      5.0
 3003.9,      4.0
 3073.6,      8.0
 3143.4,      6.0
 3213.1,      4.0
 3282.8,      2.0
 3352.5,      8.0
 3422.2,     19.0
 3492.0,     21.0
 3561.7,      6.0
 3631.4,      7.0
 3701.1,     13.0
 3770.8,      7.0
 3840.6,      4.0
 3910.3,      6.0
 3980.0,      4.0
 4049.7,      4.0
 4119.4,      2.0
 4189.1,      4.0
 4258.9,      5.0
 4328.6,      4.0
 4398.3,      2.0
 4468.0,      5.0
 4537.7,      3.0
 4607.5,      5.0
 4677.2,      6.0
 4746.9,      4.0
 4816.6,      3.0
 4886.3,      2.0
 4956.1,      7.0
 5025.8,      4.0
 5095.5,      4.0
 5165.2,      5.0
 5234.9,      7.0
 5304.6,      4.0
 5374.4,      3.0
 5444.1,      6.0
 5513.8,      4.0
 5583.5,      3.0
 5653.2,      3.0
 5723.0,      2.0
 5792.7,      4.0
 5862.4,      3.0
 5932.1,      3.0
 6001.8,      4.0
 6071.6,      4.0
 6141.3,      4.0
 6211.0,      3.0
 6280.7,      2.0
 6350.4,      7.0
 6420.1,      2.0
 6489.9,      2.0
 6559.6,      2.0
 6629.3,      1.0
 6699.0,      4.0
 6768.7,      2.0
 6838.5,      4.0
 6908.2,      4.0
 6977.9,      1.0
 7047.6,      4.0
 7117.3,      6.0
 7187.1,      1.0
 7256.8,      5.0
 7326.5,      4.0
 7396.2,      1.0
 7465.9,      5.0
 7535.6,      4.0
 7605.4,      5.0
 7675.1,      4.0
 7744.8,      5.0
 7814.5,      2.0
 7884.2,      6.0
 7954.0,      3.0
 8023.7,      5.0
 8093.4,      1.0
 8163.1,      1.0
 8232.8,      2.0
 8302.6,      3.0
 8372.3,      1.0
 8442.0,      1.0
 8511.7,      1.0
 8581.4,      4.0
 8651.2,      5.0
 8720.9,      2.0
 8790.6,      7.0
 8860.3,      3.0
 8930.0,      2.0
 8999.7,      4.0
 9069.5,      3.0
 9139.2,      2.0
 9208.9,      4.0
 9278.6,      0.0
 9348.3,      2.0
 9418.1,      1.0
 9487.8,      3.0
 9557.5,      2.0
 9627.2,      3.0
 9696.9,      1.0
 9766.7,      6.0
 9836.4,      1.0
 9906.1,      3.0
 9975.8,      3.0
10045.5,      4.0
10115.2,      2.0
10185.0,      8.0
10254.7,      0.0
10324.4,      2.0
10394.1,      1.0
10463.8,      4.0
10533.6,      5.0
10603.3,      3.0
10673.0,      2.0
10742.7,      3.0
10812.4,      3.0
10882.2,      4.0
10951.9,      0.0
11021.6,      4.0
11091.3,      2.0
11161.0,      1.0
11230.7,      2.0
11300.5,      2.0
11370.2,      2.0
11439.9,      5.0
11509.6,      2.0
11579.3,      2.0
11649.1,      2.0
11718.8,      3.0
11788.5,      1.0
11858.2,      0.0
11927.9,      1.0
11997.7,      1.0
12067.4,      3.0
12137.1,      3.0
12206.8,      3.0
12276.5,      2.0
12346.2,      3.0
12416.0,      3.0
12485.7,      2.0
12555.4,      3.0
12625.1,      4.0
12694.8,      0.0
12764.6,      2.0
12834.3,      3.0
12904.0,      1.0
12973.7,      2.0
13043.4,      2.0
13113.2,      1.0
13182.9,      1.0
13252.6,      3.0
13322.3,      3.0
13392.0,      2.0
13461.7,      1.0
13531.5,      1.0
13601.2,      2.0
13670.9,      1.0
13740.6,      1.0
13810.3,      2.0
13880.1,      4.0
13949.8,      2.0
14019.5,      1.0
14089.2,      0.0
14158.9,      1.0
14228.7,      1.0
14298.4,      2.0
14368.1,      0.0
14437.8,      1.0
14507.5,      1.0
14577.2,      0.0
14647.0,      0.0
14716.7,      1.0
14786.4,      0.0
14856.1,      1.0
14925.8,      0.0
14995.6,      0.0
15065.3,      0.0
15135.0,      0.0
15204.7,      0.0
15274.4,      0.0
15344.2,      0.0
15413.9,      0.0
15483.6,      0.0
15553.3,      0.0
15623.0,      0.0
15692.7,      0.0
15762.5,      0.0
15832.2,      0.0
15901.9,      0.0
15971.6,      0.0
16041.3,      0.0
16111.1,      0.0
16180.8,      0.0
16250.5,      0.0
16320.2,      0.0
16389.9,      0.0
16459.7,      0.0
16529.4,      0.0
16599.1,      0.0
16668.8,      0.0
16738.5,      0.0
16808.3,      0.0
16878.0,      0.0
16947.7,      0.0
17017.4,      0.0
17087.1,      0.0
17156.8,      0.0
17226.6,      0.0
17296.3,      0.0
17366.0,      0.0
17435.7,      0.0
17505.4,      0.0
17575.2,      0.0
17644.9,      0.0
17714.6,      0.0
17784.3,      0.0
17854.0,      0.0
17923.8,      0.0
17993.5,      0.0
18063.2,      0.0
18132.9,      0.0
18202.6,      0.0
18272.3,      0.0
18342.1,      0.0
18411.8,      0.0
18481.5,      0.0
18551.2,      0.0
18620.9,      0.0
18690.7,      0.0
18760.4,      0.0
18830.1,      0.0
18899.8,      0.0
18969.5,      0.0
19039.3,      0.0
19109.0,      0.0
19178.7,      0.0
19248.4,      0.0
19318.1,      0.0
19387.8,      0.0
19457.6,      0.0
19527.3,      0.0
19597.0,      0.0
19666.7,      0.0
19736.4,      0.0
19806.2,      0.0
19875.9,      0.0
19945.6,      0.0
20015.3,      0.0
20085.0,      0.0
20154.8,      0.0
20224.5,      0.0
20294.2,      0.0
20314.1,      0.0
#ENDOFDATA   :